Folder: ML-Model-Builder/PROJECT/FTIR Merged

File: Copper A.dat
Wavelength [nm]	Wavenumbers [1/cm]	Copper Ambient - averaged	Copper 1 7 days - averaged	Copper 2 7 days - averaged	Copper 1 14 days - averaged	Copper 2 14 days - averaged	Copper 1 17 days - averaged	Copper 2 17 days - averaged	Copper 1 21 days - averaged	Copper 2 21 days - averaged	Copper 1 26 days - averaged	Copper 2 26 days - averaged	Copper 1 28 days - averaged	Copper 2 28 days - averaged	Copper 1 38 days - averaged	Copper 2 38 days - averaged	Copper 1 40 days - averaged	Copper 2 40 days - averaged	Copper 1 42 days - averaged	Copper 2 42 days - averaged
899.63	11115.68	0.189	0.1846	0.1836	0.1852	0.1847	0.1937	0.1877	0.2031	0.2021	0.1784	0.183	0.1844	0.1872	0.1719	0.1749	0.172	0.1736	0.177	0.1811
950.734	10518.18	0.2192	0.213	0.2128	0.2186	0.2184	0.2208	0.2187	0.2206	0.2219	0.2118	0.2139	0.2114	0.2135	0.207	0.2077	0.2093	0.2095	0.2089	0.2102
1001.839	9981.65	0.1854	0.1788	0.1789	0.1869	0.1864	0.1861	0.1855	0.1919	0.1913	0.1781	0.1796	0.1791	0.1804	0.1773	0.177	0.179	0.1792	0.1777	0.1781
1052.943	9497.19	0.1696	0.1649	0.1656	0.1744	0.174	0.1724	0.1719	0.1825	0.1807	0.1641	0.1655	0.1654	0.1663	0.1643	0.1642	0.1652	0.1669	0.1642	0.1646
1104.048	9057.58	0.1595	0.1529	0.1532	0.1609	0.1608	0.1596	0.1597	0.1628	0.1637	0.1531	0.1547	0.1516	0.1539	0.1523	0.1534	0.1534	0.156	0.1523	0.1536
1155.152	8656.87	0.2448	0.2381	0.2379	0.2462	0.2468	0.2461	0.2463	0.252	0.2529	0.24	0.242	0.2386	0.2415	0.2367	0.2383	0.2378	0.2419	0.2357	0.2381
1206.256	8290.11	0.1851	0.1799	0.18	0.1868	0.1879	0.1861	0.1868	0.1906	0.192	0.1831	0.1845	0.1811	0.1839	0.1792	0.1812	0.1803	0.1847	0.1787	0.181
1257.361	7953.17	0.2579	0.2503	0.2499	0.2576	0.2588	0.2573	0.258	0.2669	0.2668	0.2531	0.2544	0.252	0.255	0.2498	0.2511	0.25	0.2545	0.2481	0.2506
1308.465	7642.54	0.3767	0.3659	0.3648	0.3733	0.3744	0.3733	0.3739	0.3889	0.3868	0.3666	0.3686	0.3662	0.3692	0.3637	0.3639	0.3632	0.3666	0.3606	0.3639
1359.569	7355.27	0.6919	0.672	0.6693	0.6815	0.6834	0.6819	0.6817	0.7054	0.701	0.6701	0.6718	0.6686	0.673	0.6647	0.659	0.6634	0.6638	0.6591	0.6611
1410.674	7088.81	0.276	0.2639	0.2631	0.2704	0.2707	0.2692	0.2694	0.2823	0.2796	0.2621	0.2621	0.2623	0.2627	0.2622	0.2607	0.2619	0.2635	0.2602	0.2606
1461.778	6840.98	3.305	3.032	2.857	2.88	3.96	3.887	3.606	4.046	5.513	2.891	4.196	2.516	3.696	4.068	2.349	3.642	2.819	3.824	4.051
1512.883	6609.9	0.167	0.1568	0.1566	0.1608	0.1605	0.1587	0.1581	0.1687	0.1662	0.1522	0.1489	0.1523	0.1511	0.152	0.1493	0.1514	0.1507	0.1495	0.1468
1563.987	6393.92	0.06379	0.05776	0.05799	0.06167	0.06195	0.05939	0.05948	0.06499	0.06474	0.05369	0.05202	0.05452	0.05518	0.05551	0.05534	0.05494	0.05677	0.05343	0.05297
1615.091	6191.6	0.09074	0.08642	0.08638	0.09039	0.09059	0.09005	0.08998	0.09526	0.0949	0.08392	0.08175	0.08504	0.08539	0.08592	0.08507	0.08519	0.08688	0.08351	0.08219
1666.196	6001.7	0.03814	0.03425	0.03443	0.03845	0.03901	0.03745	0.03809	0.04236	0.04312	0.03232	0.03173	0.03323	0.03507	0.03489	0.03594	0.03423	0.03744	0.03333	0.03434
1717.3	5823.09	0.02581	0.02618	0.02733	0.03407	0.03684	0.03571	0.03875	0.04245	0.04673	0.03576	0.03903	0.03745	0.04393	0.03977	0.04706	0.04116	0.05058	0.04054	0.04651
1768.404	5654.82	0.01937	0.01801	0.0187	0.02222	0.02393	0.02285	0.02451	0.02739	0.02998	0.02037	0.02255	0.02077	0.02459	0.02163	0.02594	0.02229	0.02783	0.02231	0.02634
1819.509	5495.99	0.0109	0.006731	0.00697	0.008459	0.008902	0.007805	0.007858	0.01063	0.01108	0.003042	0.002832	0.002059	0.002308	0.002203	0.00257	0.002334	0.00271	0.002417	0.002509
1870.613	5345.84	0.01544	0.01152	0.01146	0.01246	0.01262	0.01178	0.01145	0.01449	0.0145	0.00611	0.005833	0.005546	0.005261	0.005313	0.004993	0.005379	0.004703	0.00552	0.005177
1921.718	5203.68	0.0119	0.008096	0.008079	0.008446	0.008672	0.008092	0.007818	0.01114	0.01118	0.002024	0.001697	0.001771	0.001435	0.001627	0.001401	0.001675	0.001165	0.001706	0.001418
1972.822	5068.88	0.003734	0.0004084	0.0005432	0.0002693	0.0005606	0.0002911	0.0001303	0.00285	0.003056	-0.006081	-0.006338	-0.006295	-0.006466	-0.006295	-0.006338	-0.006295	-0.006509	-0.006209	-0.00638
2023.926	4940.89	0.01137	0.007818	0.007902	0.007782	0.008088	0.007928	0.007796	0.01153	0.01139	0.0009348	0.000826	0.001139	0.001022	0.001018	0.001092	0.0008956	0.0009392	0.0008608	0.0009218
2075.031	4819.21	0.009977	0.006286	0.006343	0.006643	0.006943	0.006573	0.006431	0.009084	0.009169	-0.000434	-0.0006076	-0.0001737	-0.0003039	-0.0002605	-0.0002605	-0.0002605	-0.0003039	-0.0004341	-0.0004341
2126.135	4703.37	0.0142	0.01006	0.01007	0.01111	0.01135	0.01063	0.01047	0.01304	0.01309	0.003909	0.003738	0.004286	0.004128	0.003834	0.003782	0.004027	0.004018	0.003799	0.003821
2177.239	4592.97	0.02503	0.02039	0.02032	0.02183	0.02208	0.0211	0.02097	0.02451	0.02433	0.01475	0.01459	0.01512	0.01492	0.01428	0.01418	0.01459	0.01462	0.01442	0.01449
2228.344	4487.64	0.02769	0.02274	0.02264	0.02405	0.02435	0.0235	0.02334	0.02683	0.02676	0.01729	0.01707	0.01743	0.01721	0.0166	0.01646	0.01701	0.01703	0.01687	0.01692
2279.448	4387.03	0.03783	0.03171	0.03173	0.03306	0.03337	0.03243	0.0322	0.03702	0.03664	0.02622	0.02585	0.02586	0.02571	0.02533	0.02536	0.0252	0.02535	0.02501	0.02521
2330.553	4290.83	0.05373	0.04201	0.04141	0.04755	0.0479	0.04134	0.04093	0.04686	0.04752	0.03869	0.03746	0.03665	0.03694	0.03665	0.03629	0.03493	0.03509	0.03406	0.03438
2381.657	4198.76	0.05448	0.04888	0.04853	0.05003	0.05027	0.04949	0.04928	0.05522	0.0541	0.04222	0.0418	0.04257	0.04242	0.0425	0.04228	0.04171	0.04194	0.04079	0.04103
2432.761	4110.56	0.05321	0.04942	0.04908	0.04921	0.04945	0.05025	0.05008	0.05462	0.05422	0.04178	0.04156	0.04244	0.04227	0.0425	0.04224	0.04206	0.04229	0.04114	0.0413
2483.866	4025.98	0.05181	0.04793	0.04765	0.04831	0.04855	0.04907	0.04895	0.05264	0.05253	0.0407	0.04053	0.04152	0.0415	0.04173	0.04161	0.04126	0.04168	0.04023	0.0405
2534.97	3944.82	0.08196	0.07714	0.0767	0.07843	0.07879	0.07902	0.07898	0.08338	0.08315	0.07064	0.07064	0.07165	0.07181	0.0713	0.07134	0.07095	0.07168	0.06963	0.07026
2586.074	3866.86	0.1657	0.1594	0.1586	0.1614	0.1618	0.1623	0.1621	0.1707	0.1693	0.1533	0.1535	0.1543	0.1545	0.1528	0.1523	0.1522	0.1529	0.1504	0.1514
2637.179	3791.93	0.2302	0.223	0.2218	0.2254	0.2258	0.2265	0.2263	0.2378	0.2356	0.2169	0.2172	0.2179	0.2181	0.2157	0.2149	0.215	0.2157	0.2129	0.2142
2688.283	3719.85	0.2627	0.2549	0.2535	0.2575	0.2581	0.2584	0.2584	0.2746	0.2711	0.2485	0.2493	0.2498	0.2503	0.2475	0.2468	0.2467	0.248	0.2447	0.2468
2739.388	3650.45	0.284	0.2752	0.2737	0.2782	0.2786	0.2783	0.2783	0.3012	0.2953	0.2681	0.2689	0.2704	0.2702	0.2681	0.2669	0.2672	0.2686	0.2656	0.2677
2790.492	3583.6	0.5011	0.4864	0.4837	0.4902	0.4912	0.4913	0.4917	0.5131	0.5075	0.4779	0.4793	0.4787	0.4796	0.476	0.4732	0.475	0.4761	0.472	0.4751
2841.596	3519.15	3.616	3.135	2.92	2.948	4.674	6	4.592	5	10	3.034	4.207	2.542	5.99	3.883	2.385	4.082	2.94	4.24	4.075
2892.701	3456.98	3.537	3.16	2.932	2.987	6.003	5.256	4.419	4.398	10	3.05	5.997	2.596	4.312	4.665	2.437	4.051	2.977	4.204	3.969
2943.805	3396.96	3.63	3.25	3.016	3.055	6.003	6	4.467	9.19	10	3.103	5.997	2.707	4.967	5.149	2.514	4.801	3.083	5.994	5.994
2994.909	3339	1.013	0.9934	0.9858	0.9952	0.9975	0.9942	0.9911	1.115	1.074	0.9779	0.977	0.9878	0.9861	0.9802	0.9566	0.9741	0.9691	0.9722	0.9704
3046.014	3282.98	0.3047	0.2977	0.2958	0.2984	0.2976	0.2978	0.2963	0.3241	0.3148	0.2878	0.2853	0.2938	0.2907	0.2895	0.284	0.2879	0.2863	0.2859	0.2829
3097.118	3228.81	0.1237	0.1193	0.1186	0.1202	0.1201	0.1193	0.1191	0.1304	0.1275	0.1102	0.1096	0.1152	0.115	0.1138	0.1129	0.1129	0.1146	0.1113	0.1114
3148.223	3176.4	0.1043	0.1002	0.0996	0.1015	0.1012	0.1006	0.1003	0.1103	0.1079	0.09073	0.09035	0.09594	0.09596	0.09472	0.09423	0.09382	0.09576	0.09238	0.09276
3199.327	3125.66	0.07901	0.0762	0.07578	0.07791	0.07753	0.07694	0.07663	0.08842	0.08525	0.0663	0.06593	0.07222	0.07208	0.07106	0.07061	0.06979	0.07197	0.06846	0.0689
3250.431	3076.51	0.03049	0.02832	0.02819	0.0302	0.02965	0.02882	0.0287	0.0322	0.03158	0.01794	0.01759	0.02326	0.0237	0.02361	0.02364	0.02271	0.025	0.02145	0.02186
3301.536	3028.89	0.02129	0.01926	0.01926	0.02144	0.02081	0.01983	0.01968	0.02199	0.02167	0.008645	0.008344	0.0138	0.01448	0.01457	0.01462	0.01369	0.01615	0.01251	0.01293
3352.64	2982.72	0.02125	0.01943	0.01949	0.02181	0.02119	0.02005	0.01992	0.02202	0.02183	0.008548	0.0083	0.01367	0.01445	0.0147	0.01491	0.01383	0.01636	0.01271	0.01318
3403.744	2937.94	0.01317	0.01197	0.01204	0.01404	0.01352	0.01264	0.01249	0.01427	0.01415	0.0009695	0.0008129	0.00611	0.006837	0.007429	0.007782	0.006471	0.008996	0.005349	0.005982
3454.849	2894.48	0.006462	0.006524	0.006462	0.007663	0.007234	0.006811	0.006581	0.007862	0.007797	-0.004364	-0.004407	0.0003693	0.0009783	0.001375	0.00164	0.0006867	0.003073	-0.0003907	7.385E-5
3505.953	2852.29	0.001885	0.001754	0.00171	0.002395	0.002151	0.002024	0.001815	0.003291	0.003348	-0.008558	-0.008813	-0.00445	-0.003848	-0.003245	-0.0029	-0.00402	-0.001863	-0.005223	-0.004794
3557.058	2811.31	-0.0001737	-0.0002605	-0.0003039	-0.0004775	-0.0004774	-0.0002605	-0.0003907	0.001409	0.001592	-0.009791	-0.01022	-0.006338	-0.005781	-0.005695	-0.005266	-0.006252	-0.004278	-0.007406	-0.006979
3608.162	2771.49	0.007977	0.009368	0.009381	0.008738	0.009053	0.009373	0.009217	0.013	0.01299	0.001187	0.0007302	0.003593	0.004198	0.003694	0.004523	0.002845	0.005019	0.001566	0.002343
3659.266	2732.79	0.01508	0.01552	0.01526	0.01415	0.01447	0.01538	0.01523	0.01996	0.01967	0.007486	0.006952	0.009723	0.01011	0.009098	0.009772	0.008814	0.01065	0.00761	0.008017
3710.371	2695.15	0.02159	0.02257	0.02247	0.02189	0.02222	0.02254	0.02228	0.02745	0.02705	0.01486	0.01395	0.01659	0.01714	0.01614	0.01722	0.01559	0.01716	0.01444	0.01465
3761.475	2658.53	0.03079	0.03216	0.03176	0.03083	0.0311	0.03207	0.03184	0.03714	0.03679	0.02377	0.02307	0.02638	0.02659	0.02545	0.0261	0.02517	0.0269	0.02362	0.02401
3812.579	2622.9	0.03731	0.03964	0.03911	0.03747	0.0377	0.03922	0.03897	0.0442	0.0438	0.0309	0.0302	0.03383	0.03406	0.0321	0.03261	0.03192	0.03369	0.0303	0.03066
3863.684	2588.2	0.04219	0.04279	0.04248	0.04172	0.04203	0.04287	0.04268	0.04766	0.04756	0.0338	0.03312	0.03714	0.03751	0.03613	0.0369	0.03591	0.03803	0.03364	0.03404
3914.788	2554.42	0.04452	0.04548	0.0451	0.04336	0.04365	0.04516	0.04503	0.05006	0.04963	0.03667	0.03619	0.03991	0.04021	0.03794	0.03861	0.03778	0.03982	0.036	0.03631
3965.893	2521.5	0.049	0.05015	0.04968	0.04831	0.04865	0.05006	0.04975	0.05417	0.05381	0.04156	0.04108	0.04476	0.04509	0.04271	0.04338	0.04252	0.04452	0.04077	0.04115
3999.641	2500.22	0.06156	0.0626	0.06211	0.0605	0.06076	0.06249	0.0622	0.06772	0.06706	0.05379	0.05337	0.05693	0.05714	0.05484	0.05547	0.05448	0.05663	0.05265	0.05322

File: kraft paper and copper A.dat
Wavelength [nm]	Wavenumbers [1/cm]	Kraft paper and copper ambient - averaged	Kraft paper and copper 1  7 days  - averaged	Kraft paper and copper 2  7 days - averaged	Kraft paper and Copper 1 14 days - averaged	Kraft Paper and copper 2 15 days - averaged	Kraft paper and copper 1  19 days - averaged	Kraft paper and Copper 2 18 days - averaged	Kraft paper and Copper 1 21 days - averaged	Kraft paper and Copper 2 21 days - averaged	Kraft paper and Copper 1 28 days - averaged	Kraft paper and Copper 2 28 days - averaged	Kraft paper and Copper 1 35 days - averaged	Kraft paper and Copper 2 35 days - averaged	Kraft paper and copper 1  42 days  - averaged	Kraft paper and Copper 2 42 days - averaged	Kraft paper and Copper 1 49 days - averaged	Kraft paper and Copper 2 50 days - averaged	Kraft paper and Copper 1 56 days - averaged	Kraft paper and Copper 2 56 days - averaged	Kraft paper and Copper 1 63 days - averaged	Kraft paper and Copper 2 63 days - averaged	Kraft paper and copper 1  70 days - averaged	Kraft paper and copper 2  67 days - averaged	Kraft paper and copper 1  77 days - averaged	Kraft paper and copper 2  74 days - averaged	Kraft paper and copper 1  83 days - averaged	Kraft paper and copper 2  80 days  - averaged
899.630	11115.68	0.1723	0.1777	0.1816	0.1835	0.1806	0.1635	0.1716	0.1688	0.1711	0.1904	0.1677	0.1729	0.1752	0.1873	0.1752	0.1765	0.1748	0.1881	0.1819	0.1892	0.176	0.1857	0.1966	0.2019	0.1955	0.1864	0.1928
969.055	10319.33	0.2326	0.231	0.2321	0.2321	0.2308	0.2233	0.2267	0.2274	0.2336	0.2378	0.229	0.2226	0.2273	0.2332	0.2258	0.2319	0.2262	0.2385	0.2323	0.2391	0.2342	0.2426	0.2435	0.2473	0.245	0.2421	0.2459
1038.480	9629.46	0.1748	0.1785	0.1769	0.1801	0.1769	0.1694	0.1735	0.1749	0.1788	0.1824	0.1754	0.1746	0.1754	0.1844	0.1741	0.1807	0.1772	0.1881	0.1799	0.1884	0.185	0.1906	0.192	0.1964	0.1939	0.195	0.199
1107.904	9026.05	0.1499	0.1496	0.15	0.1513	0.15	0.1479	0.1498	0.1509	0.1543	0.1553	0.1519	0.1489	0.1515	0.1578	0.1504	0.1584	0.1533	0.166	0.1589	0.169	0.1665	0.1729	0.1736	0.1785	0.1768	0.1733	0.1772
1177.329	8493.80	0.1848	0.1832	0.1849	0.1853	0.1836	0.1783	0.1817	0.1829	0.1873	0.1889	0.185	0.1848	0.1861	0.1916	0.1851	0.1947	0.1878	0.2003	0.1947	0.2055	0.2038	0.2101	0.211	0.2186	0.2172	0.2134	0.2172
1246.754	8020.83	0.2291	0.2303	0.2277	0.2316	0.2305	0.2253	0.2265	0.2278	0.229	0.2327	0.2297	0.2279	0.229	0.2403	0.2276	0.2385	0.2347	0.2472	0.2394	0.2519	0.249	0.257	0.2583	0.2643	0.2624	0.2595	0.2632
1316.179	7597.75	0.3469	0.3466	0.3453	0.3476	0.3471	0.3366	0.3389	0.3399	0.3448	0.3458	0.3428	0.3389	0.3413	0.3511	0.3382	0.3478	0.3443	0.3557	0.3481	0.3576	0.3552	0.362	0.3632	0.368	0.3665	0.3681	0.3715
1385.604	7217.07	0.8905	0.9105	0.8865	0.9053	0.9062	0.879	0.877	0.8804	0.8804	0.8812	0.8763	0.87	0.871	0.9143	0.853	0.8759	0.8832	0.8961	0.8765	0.8914	0.8817	0.8955	0.9	0.8943	0.889	0.8829	0.8877
1455.029	6872.72	5.999	3.649	3.664	2.668	4.129	4.747	2.898	3.652	3.56	4.094	2.502	2.78	6	5.998	2.203	6.001	6	3.664	4.145	3.543	4.507	4.116	5.999	6	3.572	3.917	6
1524.453	6559.73	0.1008	0.1044	0.1048	0.103	0.1014	0.09739	0.09815	0.09822	0.1006	0.1025	0.09995	0.0998	0.09915	0.1062	0.096	0.09713	0.09739	0.1051	0.09834	0.1033	0.09776	0.1033	0.105	0.1003	0.1008	0.09624	0.09788
1593.878	6274.01	0.08922	0.09008	0.08918	0.09055	0.08977	0.08844	0.08793	0.08888	0.08972	0.09158	0.08951	0.09018	0.09016	0.09485	0.08702	0.09332	0.09023	0.09704	0.09328	0.09975	0.09702	0.102	0.1031	0.1052	0.1047	0.1025	0.1053
1663.303	6012.13	0.03255	0.03501	0.03458	0.03564	0.03406	0.03253	0.03472	0.03495	0.03487	0.03748	0.03551	0.03808	0.03769	0.04369	0.03619	0.04216	0.03968	0.04729	0.04292	0.05056	0.04809	0.05354	0.05472	0.0563	0.05622	0.05481	0.05772
1732.728	5771.25	0.0187	0.02126	0.02102	0.02452	0.02265	0.02449	0.02374	0.02666	0.02529	0.03176	0.02844	0.03799	0.0341	0.04596	0.03647	0.05551	0.04419	0.06402	0.05427	0.07413	0.07352	0.08474	0.08664	0.1001	0.09714	0.0999	0.1046
1802.153	5548.92	0.008295	0.008809	0.009665	0.009142	0.008415	0.006736	0.008987	0.009448	0.009253	0.01008	0.009164	0.0105	0.01011	0.01271	0.008273	0.01097	0.007857	0.01446	0.0115	0.01687	0.01391	0.01932	0.0196	0.02017	0.02021	0.01935	0.02162
1871.577	5343.09	0.01114	0.01069	0.01116	0.0108	0.01096	0.01011	0.01033	0.01044	0.0105	0.01071	0.01088	0.01076	0.0105	0.01039	0.007774	0.008273	0.005916	0.009333	0.00826	0.01003	0.007279	0.01065	0.01062	0.00916	0.009839	0.006643	0.008535
1941.002	5151.98	0.003852	0.003804	0.003979	0.003957	0.003668	0.001863	0.003843	0.003922	0.003786	0.003729	0.003431	0.003409	0.003571	0.003769	0.001017	0.0007823	-0.001128	0.002273	0.0012	0.002644	0.0002606	0.003663	0.003602	0.002138	0.002815	-0.0001738	0.001745
2010.427	4974.07	0.001832	0.001815	0.001837	0.001806	0.001933	0.001105	0.001762	0.001715	0.001662	0.001653	0.001845	0.001893	0.00181	0.001854	-0.0007377	-0.0006509	-0.002684	0.0008912	-0.0003473	0.001026	-0.001258	0.001741	0.001754	0.0002302	0.000926	-0.002555	-0.0006509
2079.852	4808.03	0.005252	0.005388	0.004747	0.005419	0.005467	0.003554	0.005094	0.005037	0.005621	0.005331	0.005089	0.005243	0.005085	0.005212	0.002601	0.002518	0.0004649	0.003826	0.002788	0.003865	0.001758	0.004654	0.004747	0.003966	0.004637	0.001183	0.003116
2149.277	4652.73	0.01464	0.01455	0.01436	0.01454	0.01456	0.0133	0.01437	0.01425	0.01437	0.01402	0.01402	0.01374	0.01387	0.01419	0.01137	0.01138	0.009555	0.01329	0.01169	0.01309	0.01097	0.01389	0.01397	0.01255	0.01318	0.009772	0.01176
2218.701	4507.14	0.02235	0.02217	0.02099	0.02221	0.02256	0.02014	0.02118	0.02106	0.02232	0.02176	0.02144	0.02163	0.0213	0.02165	0.01863	0.01875	0.01688	0.02005	0.01905	0.01985	0.01799	0.02066	0.02077	0.02028	0.02085	0.01746	0.01949
2288.126	4370.39	0.03287	0.03346	0.033	0.03382	0.03275	0.03106	0.03219	0.03244	0.03284	0.03344	0.03234	0.0317	0.03179	0.03181	0.02897	0.03143	0.02701	0.03198	0.02907	0.03144	0.0287	0.03122	0.03239	0.0307	0.03124	0.02705	0.02906
2357.551	4241.69	0.04601	0.04727	0.04343	0.0446	0.04671	0.04127	0.04118	0.04241	0.04636	0.04635	0.04485	0.04371	0.04398	0.04524	0.04142	0.04279	0.04005	0.0423	0.04201	0.04169	0.04021	0.04095	0.04248	0.04336	0.0438	0.04072	0.04282
2426.976	4120.35	0.04882	0.0486	0.04788	0.04874	0.04863	0.04623	0.04768	0.04745	0.04831	0.04734	0.04723	0.04673	0.04648	0.04758	0.04409	0.04434	0.04243	0.04632	0.04427	0.04588	0.0438	0.04677	0.04704	0.04652	0.04699	0.04334	0.0455
2496.401	4005.77	0.05062	0.05026	0.04877	0.05048	0.05104	0.04809	0.0489	0.04865	0.05071	0.04956	0.049	0.04866	0.04891	0.04968	0.04633	0.04659	0.0449	0.04859	0.04714	0.0483	0.04694	0.04933	0.04972	0.0491	0.04956	0.04656	0.04877
2565.826	3897.38	0.115	0.1135	0.1126	0.1138	0.1139	0.1102	0.1114	0.1111	0.1135	0.1119	0.1118	0.1104	0.1106	0.1118	0.1079	0.1089	0.1068	0.1111	0.1089	0.1107	0.1092	0.1119	0.1125	0.1133	0.1135	0.1105	0.1129
2635.250	3794.71	0.2223	0.2201	0.2171	0.2205	0.2217	0.2134	0.2141	0.2137	0.2189	0.2157	0.2153	0.2107	0.2126	0.2171	0.2093	0.211	0.2108	0.2153	0.212	0.2145	0.2134	0.216	0.2168	0.2174	0.2172	0.2164	0.2189
2704.675	3697.30	0.2592	0.2572	0.2542	0.2576	0.2581	0.2496	0.251	0.2506	0.2556	0.2528	0.2526	0.2484	0.2499	0.255	0.2464	0.2493	0.2483	0.2534	0.2496	0.2525	0.2512	0.2542	0.2553	0.2571	0.2567	0.2551	0.2578
[...]
3051.799	3276.76	0.259	0.2654	0.2554	0.2651	0.2656	0.2569	0.2559	0.2558	0.257	0.2554	0.2527	0.2544	0.2506	0.2634	0.2462	0.2501	0.2523	0.2563	0.2487	0.2537	0.2507	0.2539	0.2562	0.2555	0.2538	0.2516	0.2556
3121.224	3203.87	0.09594	0.09979	0.0941	0.09987	0.1	0.09675	0.0965	0.09583	0.09707	0.09596	0.09452	0.0978	0.09487	0.1008	0.09194	0.09458	0.09412	0.09864	0.09386	0.09706	0.09623	0.09781	0.09959	0.09998	0.09956	0.09653	0.1
3190.649	3134.16	0.08441	0.08763	0.08095	0.08815	0.08859	0.08436	0.08393	0.08309	0.08493	0.08286	0.08191	0.0843	0.08227	0.08839	0.07928	0.08147	0.08203	0.08566	0.08103	0.08394	0.08336	0.08412	0.08572	0.08705	0.08666	0.08326	0.08691
3260.074	3067.42	0.02204	0.02393	0.01954	0.02439	0.02473	0.02396	0.02387	0.0229	0.02419	0.0225	0.02125	0.02521	0.02299	0.02479	0.02022	0.02218	0.02093	0.02483	0.02166	0.02323	0.0238	0.02367	0.0249	0.0264	0.02645	0.0222	0.02577
3329.498	3003.46	0.01686	0.01841	0.01392	0.01906	0.01931	0.01924	0.01901	0.01808	0.01919	0.01714	0.0162	0.01992	0.01824	0.01945	0.01536	0.01724	0.01608	0.01996	0.01701	0.01852	0.01923	0.01858	0.01966	0.02207	0.02217	0.0172	0.02079
3398.923	2942.11	0.009768	0.01159	0.006877	0.01236	0.01259	0.01239	0.01254	0.01179	0.01262	0.01043	0.009404	0.01407	0.01171	0.01297	0.008805	0.01135	0.009461	0.01362	0.01077	0.0124	0.01306	0.01245	0.01361	0.01634	0.01627	0.01212	0.01564
3468.348	2883.22	0.001776	0.002758	-0.001474	0.003782	0.004049	0.004396	0.004479	0.003729	0.004207	0.002029	0.001379	0.005428	0.003475	0.004106	0.0006041	0.002544	0.0006954	0.004558	0.002369	0.003773	0.004496	0.003935	0.004931	0.00776	0.007995	0.002937	0.006423
3537.773	2826.64	-0.003374	-0.00208	-0.005309	-0.001388	-0.0009544	-0.0007377	-0.001041	-0.001517	-0.000781	-0.002684	-0.003374	0.001414	-0.001388	-0.0009544	-0.003934	-0.002425	-0.004665	-0.0009111	-0.002857	-0.001604	-0.001647	-0.001431	-0.0003473	0.001261	0.001405	-0.0029	0.0001824
3607.198	2772.24	0.006049	0.007853	0.004795	0.008983	0.00842	0.008539	0.007911	0.007792	0.008181	0.007142	0.006344	0.01038	0.007743	0.00784	0.004844	0.006948	0.003975	0.007571	0.005318	0.006921	0.006317	0.006551	0.007999	0.008265	0.008677	0.003751	0.006423
3676.623	2719.89	0.01627	0.01748	0.01554	0.01784	0.01808	0.01701	0.01659	0.01606	0.01723	0.01572	0.01582	0.01895	0.01622	0.01669	0.01343	0.01377	0.01207	0.01494	0.01327	0.01369	0.01308	0.01395	0.0151	0.0144	0.01481	0.0092	0.01156
3746.047	2669.48	0.02678	0.02751	0.02565	0.0277	0.02833	0.02728	0.02729	0.02647	0.02774	0.02549	0.02555	0.02859	0.0259	0.02573	0.023	0.0235	0.02172	0.02412	0.02287	0.02285	0.02288	0.02331	0.02425	0.02442	0.02473	0.0198	0.02253
3815.472	2620.91	0.03712	0.03788	0.03589	0.03826	0.03912	0.03761	0.03703	0.03639	0.03789	0.03553	0.03548	0.03865	0.03602	0.03652	0.03312	0.0329	0.03187	0.03415	0.03282	0.03252	0.03243	0.03328	0.03406	0.0344	0.03474	0.03068	0.03329
3884.897	2574.07	0.0417	0.04221	0.03988	0.04233	0.04308	0.04173	0.0416	0.04098	0.04213	0.03981	0.03946	0.04271	0.03997	0.04021	0.03715	0.03729	0.03605	0.03862	0.03682	0.03693	0.03706	0.03739	0.03828	0.03917	0.03937	0.03502	0.03758
3954.322	2528.88	0.04569	0.04595	0.04351	0.04619	0.0471	0.04579	0.04528	0.04469	0.04622	0.04359	0.0435	0.04623	0.04392	0.04431	0.04104	0.04092	0.03996	0.04241	0.04083	0.04069	0.04072	0.04118	0.04214	0.04298	0.04342	0.03912	0.0418
3999.641	2500.22	0.05951	0.05989	0.05672	0.06014	0.06129	0.05908	0.0587	0.05817	0.05985	0.05695	0.05705	0.05931	0.05701	0.05808	0.05419	0.05429	0.05368	0.05572	0.05413	0.05431	0.05421	0.05477	0.05578	0.05672	0.0572	0.05313	0.05587